Folder: PV-Perovskite-Solar-Cells-Statistics

Note: README.md
# PV-Perovskite-Solar-Cells-Statistics
Here, I create a sequence of plots analyzing various statistical parameters of perovskite solar cells' photovoltaic performance. The visualizations provide insights into key metrics, trends, and stability over time.
Explanation:

Script Overview

This script analyzes the degradation of key photovoltaic parameters in MAPI perovskite solar cells over time. The visualization provides insights into the stability of these cells by examining the following metrics:

   PCE (Power Conversion Efficiency) â€“ Measures how efficiently the solar cell converts sunlight into electricity.

   Voc (Open-Circuit Voltage) â€“ Represents the maximum voltage when no current flows.

  Jsc (Short-Circuit Current Density) â€“ Indicates the current generated under short-circuit conditions.

  FF (Fill Factor) â€“ A crucial efficiency parameter that describes the quality of the solar cell.

  Key Features of the Script

  Loading Data

  Reads a CSV file containing time-series measurements of PCE, Voc, Jsc, and FF for MAPI perovskite solar cells.

  Plot Styling

  Uses Seaborn for visualization aesthetics.

  Applies the "ticks" style for a clean and professional look.

  Scatter Plot Visualization

  Displays PCE, Voc, Jsc, and FF values as blue data points to show trends over time.

  Each parameter is plotted separately for better clarity.

  Error Bars

  Adds standard deviation error bars (black) to indicate variability in the data.

  Linear Regression Analysis

  Computes a red regression line for each parameter to visualize long-term trends.

  The slope of the regression line represents the degradation rate over time.

  Annotation

  Displays the degradation rate of PCE (and other parameters) as text inside the plot for quick reference.

  Optional Annotations

  Includes a commented-out section that, when enabled, labels individual data points with their exact values.

  Saving & Displaying the Plot

  Saves the final PCE, Voc, Jsc, and FF plots as high-quality PNG files with transparent backgrounds.

  Displays the plots for immediate analysis.

  Output

  Prints the linear regression slope for each parameter, indicating the degradation trend over time.

 Purpose & Insights

 This script helps analyze the long-term stability of MAPI perovskite solar cells by tracking changes in PCE, Voc, Jsc, and FF. By understanding degradation patterns, researchers can optimize materials and fabrication techniques to enhance solar cell  performance and durability.



This repository contains scripts for analyzing and visualizing statistical parameters of perovskite solar cells' photovoltaic performance. The plots provide insights into key metrics, trends, and stability over time.

ðŸ“‚ Repository Structure

data/: Contains CSV files with photovoltaic performance data.

scripts/: Python scripts for data analysis and visualization.

plots/: Output figures generated by the scripts.

README.md: This documentation file.

ðŸ“ˆ Features

Re

File: Estabilização MAPI.csv
Concentration,VOC,JSC,ff,PCE
0,0.999964,23.7147,0.583587,13.8391
0,0.875014,17.5133,0.61349,9.401353
0,0.875029,17.6289,0.609457,9.401353
0,0.999967,25.6856,0.568943,14.6131
7,0.925018,23.6208,0.58,12.6511
7,0.900153,18.9683,0.62498,10.6712
7,0.900157,19.9899,0.593038,10.6712
7,0.874961,26.4998,0.652577,15.1309
15,0.97497,23.6593,0.569677,13.1408
15,0.674648,17.9967,0.369345,4.484386
15,0.674644,18.8422,0.352774,4.484386
15,0.97497,25.2949,0.623758,15.383
29,0.924962,23.6035,0.469725,10.2552
29,0.924982,14.7606,0.466031,6.362852
29,0.925001,13.5422,0.50795,6.362852
29,0.924997,23.8217,0.546387,12.0397
36,0.924816,21.6208,0.468891,9.375594
36,0.949677,16.6975,0.47973,7.607196
36,0.949685,17.0,0.472552,7.607196
36,0.949717,22.5663,0.538154,11.5335
43,0.924854,20.8871,0.488416,9.434991
43,0.874853,17.1088,0.484079,7.245535
43,0.874807,18.4459,0.449012,7.245535
43,0.949727,23.3637,0.534408,11.85806
50,0.9248013,19.1616,0.459929,8.15026
50,0.924821,15.2,0.473044,6.6589
50,0.9248606,14.3801,0.500685,6.6589
50,0.9497435,20.9095,0.528315,10.4916

File: Estabilização QDs_MAPI2,4.csv
Concentration,VOC,JSC,ff,PCE
0,0.900298,19.4225,0.413355,7.22793
0,0.975219,15.0482,0.565511,8.29905
0,0.950037,17.5858,0.547391,9.145352
0,0.975224,23.2985,0.57366,13.0343
7,0.949895,22.5221,0.564468,12.07603
7,0.850113,17.945,0.694475,10.5944
7,0.900152,17.3928,0.611791,9.578319
7,0.999924,23.6885,0.587193,13.9087
15,0.974974,22.1069,0.502627,10.83347
15,0.874883,16.8515,0.652459,9.619245
15,0.749896,15.854,0.494564,5.879801
15,0.974977,22.5978,0.574973,12.668
29,0.949921,21.8948,0.445343,9.262418
29,0.875013,16.5447,0.566737,8.204535
29,0.850164,15.0324,0.491005,6.275028
29,0.975121,22.1478,0.509491,11.0034
36,0.949715,21.2039,0.465692,9.377974
36,0.94973,17.0893,0.579043,9.397999
36,0.874812,14.8783,0.583873,7.599526
36,0.974887,21.3156,0.515307,10.7082
43,0.949741,22.4485,0.442634,9.437077
43,0.949739,18.4709,0.557845,9.786005
43,0.924894,15.2801,0.541858,7.657785
43,0.974914,21.9534,0.515587,11.035
50,0.9498602,20.3617,0.399462,7.72591
50,0.8500957,16.8023,0.498883,7.12584
50,0.7748219,15.3694,0.54705,6.51459
50,0.9250031,19.3175,0.463678,8.28535

File: Estabilização QDs_MAPI7,3.csv
Concentration,VOC,JSC,ff,PCE
0,0.875089,15.6033,0.426349,5.821497
0,0.800152,18.2109,0.424489,6.185427
0,0.850229,17.0518,0.49574,7.187192
0,0.875085,21.3677,0.623778,11.66376
7,0.874978,18.3454,0.433126,6.952457
7,0.824913,19.9918,0.451285,7.442362
7,0.800052,19.5704,0.47231,7.395109
7,0.900181,17.6244,0.532842,8.453632
15,0.874833,13.00243,0.428536,4.874574
15,0.774694,17.8876,0.44381,6.150079
15,0.849982,18.5741,0.493992,7.798971
15,0.87485,11.8281,0.568061,5.878203
29,0.87495,13.5189,0.387381,4.582075
29,0.800056,18.4797,0.451613,6.676997
29,0.850125,20.0298,0.474987,8.088017
29,0.850116,10.8698,0.552065,5.101395
36,0.874802,11.4936,0.453911,4.563889
36,0.749814,17.0343,0.439416,5.612473
36,0.849919,17.4832,0.494372,7.346036
36,0.849931,11.0874,0.561024,5.286832
43,0.87482,15.3467,0.388199,5.211806
43,0.649711,19.0628,0.403646,4.999272
43,0.149583,16.1161,0.27742,0.668775
43,0.874812,12.56836,0.4933,5.423813
50,0.8749185,12.4261,0.386545,4.20244
50,0.7499303,18.5702,0.437865,6.09788
50,0.8248685,16.5113,0.475844,6.48085
50,0.8500655,10.6922,0.52612,4.78196

File: Estabilização QDs_MAPI73.csv
Concentration,VOC,JSC,ff,PCE
0,0.999995,21.3432,0.560882,11.9709
0,0.875077,18.3142,0.616703,9.883464
0,0.54992,17.2025,0.355312,3.361248
0,0.875058,24.5252,0.676006,14.5077
7,0.949881,24.7071,0.490942,11.5218
7,0.900158,18.9249,0.501796,8.548321
7,0.900172,16.6699,0.465846,6.990386
7,0.975064,22.8283,0.555764,12.37078
15,0.949722,22.0638,0.510936,10.7064
15,0.874798,15.9039,0.445055,6.191908
15,0.924877,18.7648,0.464884,8.068101
15,0.949722,24.5651,0.553036,12.9024
29,0.949923,20.4825,0.481608,9.370552
29,0.900195,15.4947,0.384283,5.36007
29,0.900205,18.0795,0.413832,6.73521
29,0.949899,23.9543,0.542234,12.3381
36,0.949707,20.088,0.482279,9.20077
36,0.924841,15.5553,0.427334,6.147687
36,0.949695,17.4901,0.425203,7.06272
36,0.949704,23.3293,0.528384,11.7068
43,0.949728,21.0739,0.461343,9.233542
43,0.799895,15.8898,0.429944,5.464671
43,0.84997,18.0301,0.423879,6.495955
43,0.949722,23.8362,0.519875,11.7688
50,0.9248916,16.7442,0.480221,7.43699
50,0.8748742,11.5114,0.403816,4.06682
50,0.9249373,14.3539,0.274889,3.64955
50,0.9497914,21.0763,0.487128,9.75136